Answer,RT,StimulusOr,Trial_type,DistractorOr,Block
146,2.51000440001371,167,100,-15,1
146,1.94130500001484,168,50,0,1
143,2.0673003999982,154,0,0,1
107,2.67476629998419,114,50,5,1
30,2.29822420002893,13,0,0,1
86,3.02513710001949,84,100,5,1
156,3.09698169998592,162,50,-15,1
71,2.88722909998614,71,50,0,1
73,2.08669729999383,83,100,5,1
164,3.926509300014,171,50,0,1
143,2.7418553000025,123,0,0,1
234,1.66128950001439,65,0,0,1
56,3.12346709999838,58,0,0,1
146,2.91517510000267,153,50,0,1
31,2.70641240000259,13,100,-5,1
153,2.09760979999555,159,0,0,1
166,1.88948490002076,175,100,-5,1
41,2.40026379999472,43,100,-30,1
106,3.63972289999947,103,100,-5,1
55,2.42257029999746,34,100,-30,1
122,2.82237280000118,122,50,0,1
163,2.30913619999774,168,50,15,1
150,2.53245060000336,160,50,5,1
49,3.14791289999266,33,100,30,1
52,3.08297629997833,50,50,-15,1
32,3.03431930000079,11,0,0,1
151,2.17736239999067,161,100,15,1
56,1.19237779997638,59,50,0,1
69,3.08030800000415,72,50,-5,1
67,2.18341670001973,60,0,0,1
67,2.63101740001002,61,0,0,1
143,3.18181270000059,154,0,0,1
71,1.8771019000269,83,0,0,1
264,3.74818029999733,83,100,30,1
42,1.51589569999487,34,0,0,1
73,1.59462019999046,71,0,0,1
132,2.3138966000115,118,0,0,1
49,0.944866199977696,53,0,0,1
40,2.07290369999828,24,100,-30,1
148,2.35957890001009,157,50,-5,1
132,1.85536990000401,131,0,0,1
211,1.39811499998905,19,0,0,1
70,3.17347140001948,60,100,-15,1
68,3.30872910001199,53,100,-15,1
155,1.24444919999223,166,0,0,1
111,2.16341090001515,99,0,0,1
38,2.56224010000005,25,50,0,1
23,2.10563810000895,20,0,0,1
137,2.40072090001195,131,100,-30,1
130,3.01642999998876,113,50,-15,1
65,4.14351279998664,53,100,5,1
137,2.23877239998546,127,0,0,1
105,2.47804159999941,97,50,15,1
69,3.78103750001173,65,50,-30,1
36,2.06845349998912,37,0,0,1
71,2.25177100001019,71,0,0,1
76,2.58694169999217,75,100,15,1
116,2.01025250001112,111,100,-30,1
55,3.21725919999881,64,100,-30,1
39,2.86521219997667,51,100,15,1
167,2.5283075000043,167,0,0,1
107,4.17490700000781,99,50,0,1
121,3.31056320000789,129,100,30,1
35,2.06185749999713,29,0,0,1
157,1.58133049999014,162,50,0,1
254,2.48412380000809,65,100,30,1
130,2.51562079999712,136,100,15,1
124,4.28262679997715,98,100,15,1
126,2.65832630000659,105,100,-15,1
32,1.52163800000562,32,50,0,1
24,1.49686959999963,22,50,15,1
75,2.59195609999006,69,50,0,1
127,3.79884090000996,122,50,0,1
170,1.35039770000731,170,100,-15,1
48,2.1096583000035,28,0,0,1
152,1.88423039999907,154,50,0,1
168,2.82003120001173,174,0,0,1
118,3.01946650000173,128,50,5,1
167,1.79478730002302,170,100,-5,1
34,3.26600880001206,36,50,0,1
57,1.69688860001042,68,0,0,1
71,1.65598320000572,73,50,5,1
133,1.8156932000129,134,100,5,1
15,2.19036340000457,8,50,-30,1
160,2.07007870002417,152,50,0,1
57,2.38062879999052,44,0,0,1
100,2.42822100000922,109,0,0,1
132,3.69933400000446,133,0,0,1
74,1.97097639998537,68,50,30,1
251,3.06615600001533,71,0,0,1
154,2.16135470001609,148,100,-5,1
130,3.40867800000706,123,50,0,1
154,2.91955180000514,147,100,30,1
79,2.64726450000308,78,100,-15,1
85,2.49471110000741,83,50,0,1
114,2.74915229997714,105,0,0,1
150,2.90868389999378,141,50,5,1
42,1.60418269998627,41,50,0,1
136,2.5954563000123,131,50,0,1
150,3.48280450000311,143,100,-15,1
101,2.04985239999951,108,0,0,1
49,2.44092749999254,60,50,0,1
112,2.55267330000061,108,0,0,1
167,2.60019190001185,165,0,0,1
8,1.67134709999664,7,100,5,1
115,3.26200400001835,98,100,-5,1
140,2.69339319999563,142,50,-30,1
74,3.69266999998945,75,0,0,1
37,2.50006299998495,42,50,30,1
169,1.98690889999853,169,0,0,1
59,1.50639769999543,60,0,0,1
48,1.54553569998825,48,100,-30,1
118,2.40073290001601,128,0,0,1
33,1.7439251000178,31,50,0,1
130,3.83932669999194,123,100,5,1
132,3.68645700000343,134,100,-15,1
37,3.07760220000637,23,50,15,1
82,2.90896390000125,77,100,5,1
24,2.77253310001106,33,100,-15,1
146,2.45931379997637,144,0,0,1
69,2.21849670002121,67,50,0,1
154,2.90580580002279,157,0,0,1
163,2.71318309998605,161,100,5,1
122,2.8009277000092,134,50,-5,1
36,1.79164919999312,33,100,-30,1
25,2.05493859999115,9,100,-15,1
28,1.59835569999996,8,50,5,1
128,2.43755859998055,145,0,0,1
158,1.6931598999945,160,100,5,1
115,2.24386919999961,111,0,0,1
99,2.63490600002115,98,100,15,1
82,1.86658959998749,80,100,15,1
65,2.64977740001632,66,50,-15,1
11,1.71337440001662,12,50,0,1
70,1.94351359998109,73,0,0,1
168,1.59926240000641,169,0,0,1
163,3.7184522000025,170,100,-15,1
146,2.6864016999898,160,50,0,1
111,3.22165350001887,114,100,30,1
55,2.53223680000519,44,50,15,1
123,1.63568429998122,122,50,-30,1
73,1.64287929999409,71,100,15,1
23,1.24209159999737,34,0,0,1
74,1.92155999998795,71,0,0,1
60,2.04232169999159,45,50,15,2
144,3.04149619999225,150,50,0,2
36,2.5364653999859,40,0,0,2
76,2.00782530001015,77,50,-30,2
8,1.66317059998983,7,100,5,2
7,1.46276319999015,7,100,-15,2
105,2.47772860000259,131,50,-15,2
77,1.80443340001511,64,100,-5,2
74,2.41210649997811,61,0,0,2
141,2.35505489999196,139,50,-15,2
49,1.68296960002044,53,100,-5,2
11,1.58623640000587,10,100,30,2
149,2.59285849999287,147,0,0,2
159,2.22465380001813,157,0,0,2
86,3.7598372999928,83,0,0,2
36,2.35877019999316,6,100,30,2
27,2.49456309998641,17,100,5,2
161,2.24554340000032,161,100,5,2
153,1.98087460000534,150,100,30,2
76,1.51618350000354,68,0,0,2
26,2.03519830000005,25,0,0,2
108,3.60258269999758,110,50,-15,2
117,2.11376559999189,115,0,0,2
152,3.79246349999448,154,0,0,2
70,4.12045439999201,73,50,0,2
81,2.23162480001338,83,100,5,2
154,2.15873339999234,162,100,15,2
80,1.82942739999271,80,50,0,2
108,3.3009858999867,101,50,0,2
108,3.24460630002432,106,100,5,2
18,1.8678307000082,27,50,-30,2
131,4.33078439999372,117,0,0,2
150,1.5303054000251,163,50,0,2
105,2.38551389999338,104,50,0,2
31,2.00121919999947,30,0,0,2
147,2.72827309998684,156,50,-5,2
61,2.98287869998603,67,50,-30,2
80,1.7983337000187,80,50,0,2
116,3.61345740000252,117,50,0,2
224,2.50902970001334,54,50,-30,2
78,3.60418609998305,80,100,-5,2
171,3.19519710002351,174,100,-30,2
73,2.2265625,60,50,15,2
139,3.52988309998182,115,0,0,2
48,2.15318190000835,34,0,0,2
125,3.08885150001151,119,100,-5,2
123,2.51152170001296,97,0,0,2
131,2.23047040001256,124,50,30,2
101,3.27792039999622,98,100,-5,2
161,3.57362770001055,151,50,30,2
155,2.69269979998353,151,100,-15,2
168,2.82714539999142,165,50,0,2
233,3.18713400000706,51,100,15,2
14,3.23446519998834,5,50,0,2
43,3.47386510000797,43,0,0,2
133,2.63305100001162,123,50,-30,2
56,3.04799620000995,61,100,15,2
28,1.98352660000091,29,0,0,2
136,2.23011819997919,144,50,0,2
149,2.07792690000497,157,0,0,2
59,3.03693329999805,68,0,0,2
109,2.80440399999497,114,100,-15,2
78,2.91502729998319,69,50,30,2
164,3.11442990001524,168,50,-15,2
130,3.01827709999634,132,100,-30,2
54,1.99382870001136,70,0,0,2
107,2.37640179999289,103,0,0,2
53,1.9678882000153,50,0,0,2
128,2.12682819998008,138,0,0,2
48,2.1979924000043,34,0,0,2
145,3.29403429999365,137,100,-5,2
151,2.53258130000904,154,0,0,2
99,1.73970829998143,98,100,15,2
64,2.83481110000866,58,0,0,2
146,4.17048599998816,142,50,0,2
149,2.06579989998136,154,50,5,2
71,4.07287350000115,77,100,5,2
69,3.83212630002527,66,0,0,2
21,2.44750969999586,9,50,30,2
172,3.3431508000067,172,0,0,2
256,2.57425789997797,68,0,0,2
108,4.50114010000834,126,0,0,2
115,3.02039309998509,114,100,30,2
105,1.67580090000411,103,0,0,2
138,3.19492190002347,115,100,15,2
65,4.04268660000525,66,50,0,2
64,2.00145660000271,70,0,0,2
8,2.52043490001233,17,100,5,2
172,1.63194069999736,174,0,0,2
35,2.03171979999752,39,50,-30,2
156,2.76590100000612,159,50,30,2
38,2.55746359998011,42,50,0,2
23,1.34853610000573,13,0,0,2
146,2.58009810000658,144,0,0,2
163,2.8112381999963,167,100,-15,2
262,3.09811869999976,83,100,-15,2
28,3.04170729999896,25,50,15,2
75,2.27341629998409,60,50,0,2
79,3.32057570002507,64,100,-30,2
45,2.17611120000947,54,50,0,2
122,2.38266030000523,109,0,0,2
73,2.81387920002453,71,100,15,2
9,2.69318750000093,10,100,30,2
33,3.12471919998643,55,50,0,2
164,2.36423420000938,171,50,5,2
67,2.96307870000601,65,0,0,2
170,3.28248210001038,169,100,-30,2
209,1.92956469999626,30,0,0,2
241,2.11286570000811,56,0,0,2
148,1.77627510001184,159,50,0,2
174,3.98311169998487,174,0,0,2
22,3.16691289999289,33,100,5,2
147,4.01412510001683,158,100,-30,2
85,2.91742959999829,79,50,15,2
163,2.46874319997733,171,50,0,2
151,3.65163400000893,141,100,5,2
41,3.92290459998185,36,100,30,2
134,2.88219720000052,126,0,0,2
151,2.53740929998457,156,100,-5,2
71,2.46521309998934,68,0,0,2
20,2.79157400000258,13,50,30,2
113,2.19067720000749,114,50,0,2
76,3.49435539997648,75,100,-30,2
22,2.01403089999803,20,0,0,2
166,2.3728443,156,100,-5,2
80,2.35611380002229,68,100,30,2
10,1.78682609999669,13,50,0,2
139,2.46685389999766,147,100,30,2
66,2.01823459999287,58,0,0,2
32,1.8093675999844,28,50,0,2
112,2.82425120001426,109,0,0,2
83,3.39965150001808,83,100,30,2
95,2.99071489999187,96,50,-15,2
24,2.21425009999075,44,100,-30,2
153,2.50139310001396,146,50,0,2
172,2.91656730000977,173,0,0,2
NaN,NaN,137,100,-5,2
61,2.13860380000551,53,100,30,2
173,3.37061650000396,173,0,0,2
157,3.08201280000503,139,100,15,2
142,2.37651760000153,149,0,0,2
35,2.90365490000113,33,50,0,2
172,2.71940370000084,169,0,0,2
96,3.49498679998214,95,100,-15,2
78,2.31361139999353,69,50,5,3
17,1.48087390000001,32,50,0,3
142,2.64755940000759,150,50,30,3
80,2.83949040001608,78,50,0,3
165,3.97486990000471,166,0,0,3
146,2.1901389999839,154,50,0,3
17,2.44555030000629,13,0,0,3
66,3.09985629998846,72,100,-5,3
159,2.42752279998967,159,0,0,3
166,3.02716099997633,171,100,-15,3
119,2.7386264000088,120,100,5,3
47,2.77759589999914,51,50,5,3
100,2.63263159999042,97,50,0,3
160,3.839934299991,171,50,0,3
22,2.47136060000048,26,50,-5,3
80,2.58251589999418,80,100,-5,3
70,1.74152330000652,69,0,0,3
111,1.52496539999265,129,100,-30,3
24,2.19611409999197,50,0,0,3
39,2.61145679999026,58,0,0,3
132,2.31484020000789,132,100,-30,3
135,1.65852669999003,138,0,0,3
19,2.12899570001173,33,100,30,3
78,2.77645999999368,77,0,0,3
21,1.55165079998551,36,100,5,3
84,2.03902150000795,84,50,0,3
173,1.81373649998568,169,100,-30,3
156,2.01325390001875,137,0,0,3
56,2.01295569998911,53,100,-15,3
94,1.64416920000804,97,50,0,3
87,1.73967439998523,85,50,0,3
102,2.29835589998402,97,0,0,3
149,2.79333010001574,139,50,0,3
157,2.73710700002266,144,50,-30,3
58,2.40027349998127,55,50,-5,3
73,2.55996040001628,76,50,-30,3
23,2.2785916000139,25,50,0,3
67,3.29363030000241,72,100,-5,3
67,3.02888820000226,69,50,0,3
157,1.98857940000016,149,50,0,3
25,2.8042279999936,36,100,-15,3
151,3.26703770001768,145,0,0,3
38,1.07401789998403,44,0,0,3
28,1.121695800015,31,100,-5,3
22,2.66456919998745,28,0,0,3
65,2.8718900999811,47,50,30,3
152,2.81524670001818,124,100,30,3
26,1.83836029999657,32,50,-15,3
117,3.39794209998217,122,50,-5,3
129,2.65277380001498,122,0,0,3
109,2.03646359997219,105,0,0,3
56,2.04318139998941,60,0,0,3
43,3.09844370000064,50,50,-5,3
8,1.82565889999387,9,100,-15,3
80,2.25733039999614,83,0,0,3
170,2.51249069999903,162,100,15,3
143,4.16706880001584,124,100,30,3
38,2.93506170000182,29,0,0,3
82,4.09434689997579,84,100,-5,3
84,3.90986610000255,76,100,-15,3
111,3.22915850000572,108,0,0,3
111,3.15569739998318,115,100,-5,3
67,3.76314870000351,72,100,-5,3
76,2.20231560000684,78,50,-5,3
175,3.61786209998536,169,0,0,3
14,1.38549270000658,18,0,0,3
56,3.5921784999955,45,100,30,3
159,3.69556210000883,163,100,-15,3
105,3.41500149999047,104,0,0,3
139,3.6223024999781,156,50,0,3
163,2.34131210000487,156,0,0,3
108,2.63636129998486,115,50,-30,3
155,2.13143059998401,156,50,-15,3
157,4.19476569999824,149,50,-30,3
79,3.15453140001046,74,100,5,3
63,1.9778149999911,53,0,0,3
106,2.00838649997604,108,0,0,3
163,1.30353269999614,158,0,0,3
169,2.67130469999393,174,0,0,3
154,2.5029988999886,147,100,15,3
41,1.70949080001446,45,100,-15,3
160,3.76472600002307,159,100,30,3
175,2.8598226000031,163,50,30,3
NaN,NaN,51,50,0,3
141,2.72300440000254,134,100,-15,3
15,2.55328970000846,9,100,-15,3
128,3.17696449998766,132,50,0,3
43,2.10459950001677,50,0,0,3
96,1.67196539998986,97,100,-30,3
156,1.98288169997977,155,50,-15,3
14,2.22192020001239,13,50,-15,3
55,3.14138580000144,48,100,-30,3
163,2.72476620000089,162,50,15,3
161,3.09228430001531,162,0,0,3
107,2.73136980002164,111,0,0,3
169,2.70624030000181,172,50,0,3
141,3.61754690000089,133,0,0,3
46,3.28042090000235,49,0,0,3
175,3.7604673000169,175,100,-5,3
87,2.86383560000104,83,0,0,3
49,2.59820469998522,42,50,0,3
40,1.84548690001247,23,0,0,3
83,3.10927270000684,84,50,30,3
170,1.50829999998678,170,50,15,3
173,2.31545230001211,171,100,-15,3
157,2.36248339997837,149,100,5,3
41,1.96146710001631,25,0,0,3
140,2.48948469999596,139,100,15,3
143,2.88927759998478,147,100,15,3
126,2.92833510000492,117,50,-5,3
102,3.47058449999895,102,100,-15,3
14,2.61408420000225,14,100,-5,3
156,2.80569519998971,156,0,0,3
38,2.89249209998525,27,50,0,3
120,2.37222649998148,113,50,0,3
102,1.75501030002488,100,0,0,3
83,2.2660681999987,81,0,0,3
52,3.14567230001558,36,100,30,3
21,3.76896919999854,16,50,-15,3
165,3.20845160001772,152,0,0,3
58,2.50312090001535,47,0,0,3
73,2.4143325999903,66,100,15,3
27,2.02981599999475,31,100,-5,3
136,2.95751989999553,120,100,5,3
160,2.08445669998764,162,100,15,3
142,2.80367170000682,129,100,30,3
81,3.64289970000391,69,0,0,3
110,2.38582749999478,117,50,0,3
127,2.20116450000205,121,50,-5,3
62,2.20063100001425,58,50,0,3
129,1.68781420000596,138,0,0,3
153,3.15883729999769,149,0,0,3
55,1.7984509000089,45,100,30,3
164,2.73355130001437,161,50,0,3
72,1.38107370000216,65,50,0,3
8,2.83590819998062,11,0,0,3
25,2.6108186999918,33,100,5,3
70,1.86655710000196,66,0,0,3
19,2.7859865000064,19,0,0,3
137,1.98494640001445,128,0,0,3
12,2.18403479998233,9,50,0,3
21,2.80720770001062,27,100,30,3
85,2.09511640001438,83,0,0,3
103,2.39842459998908,100,100,15,3
263,2.6679540000041,80,100,30,4
160,2.41125079998164,137,0,0,4
26,2.25778339998215,36,100,-15,4
106,2.07322250001016,113,0,0,4
113,2.13639649999095,119,100,-5,4
103,3.53651370000443,104,0,0,4
167,1.45581360001233,168,50,0,4
77,2.78226920001907,72,100,-5,4
139,2.8619294000091,126,0,0,4
161,1.98898500000359,149,100,5,4
153,1.77205849997699,141,50,0,4
112,1.49972000002163,111,100,-30,4
26,1.6105817000207,32,50,-30,4
156,2.36200860000099,153,50,30,4
60,2.0731545999879,56,0,0,4
14,1.83292719998281,13,50,0,4
105,1.87218959999154,114,50,-15,4
59,2.23118640002212,65,0,0,4
103,2.93420200000401,99,50,0,4
151,2.76584470001399,144,100,-5,4
96,2.5012762999977,97,100,-30,4
47,2.612455399998,69,100,-30,4
175,3.7472337000072,173,50,0,4
139,4.13074680001591,113,50,30,4
175,2.4183425999945,173,50,-30,4
76,2.6335359000077,73,50,15,4
27,2.72011009999551,40,0,0,4
140,3.70341760001611,128,0,0,4
146,1.50296990000061,136,100,15,4
118,2.23039289997541,114,50,0,4
83,1.84603509999579,85,50,-15,4
78,3.15610849999939,72,100,-30,4
160,1.89958830000251,138,0,0,4
51,1.36289980000583,60,50,-5,4
13,1.56270419998327,14,100,15,4
117,2.47393659999943,129,0,0,4
166,2.15282720001414,159,100,-5,4
66,1.77638689999003,68,50,0,4
168,1.95977919999859,165,50,5,4
165,2.42290770000545,162,0,0,4
18,2.84589419999975,14,100,-5,4
30,3.8449152999965,36,50,-15,4
111,3.94030940000084,115,100,15,4
111,2.18004959999234,105,0,0,4
170,3.33899859999656,171,0,0,4
28,3.93065709999064,28,50,-15,4
51,2.52957439998863,53,0,0,4
31,3.04840999998851,28,0,0,4
163,2.2161630000046,161,100,5,4
6,2.39125349998358,8,50,0,4
31,1.83044730001711,27,100,30,4
87,1.18135840000468,80,50,15,4
135,1.56485650001559,126,0,0,4
174,3.02814499998931,175,50,-5,4
157,2.28386259998661,156,0,0,4
71,3.9392406999832,68,0,0,4
164,3.72155699998257,169,50,-30,4
82,2.84141229998204,74,0,0,4
77,3.06434250000166,73,50,0,4
19,3.07200329998159,25,100,-30,4
72,2.39883270001155,71,0,0,4
32,1.84586099997978,22,50,0,4
167,3.81360510000377,171,0,0,4
141,3.70035950001329,142,50,0,4
36,3.69982070001424,43,0,0,4
158,2.57177110001794,162,0,0,4
107,2.50612189999083,109,0,0,4
136,2.7614551000006,123,100,5,4
78,2.31298889999744,74,100,5,4
166,4.29624700002023,163,100,5,4
156,2.64764260000084,156,0,0,4
65,3.37413159999414,47,50,0,4
29,2.96562740000081,34,0,0,4
149,2.98904570000013,142,50,15,4
78,1.99657210000441,75,0,0,4
NaN,NaN,108,100,5,4
16,2.10648909999873,12,100,-5,4
10,3.0017032000178,9,0,0,4
87,2.41768470001989,81,0,0,4
86,2.4567913999781,85,50,0,4
148,1.9517760000017,152,100,-15,4
171,1.92656559997704,169,0,0,4
151,2.4542964999855,152,0,0,4
27,1.71791129998746,8,50,0,4
60,2.19724710000446,60,100,-15,4
164,2.25963719998254,155,100,-30,4
115,3.58687509997981,128,50,0,4
77,2.5624868000159,74,0,0,4
69,3.93778939999174,72,50,0,4
146,1.20135749998735,143,100,-15,4
98,2.72879940000712,97,0,0,4
126,2.31916459999047,126,0,0,4
72,2.95073419998516,61,100,15,4
13,1.52581970000756,19,0,0,4
85,2.01347450001049,84,100,-5,4
195,1.73192500000005,14,100,15,4
45,2.82761060001212,53,100,15,4
123,2.26689940001233,113,0,0,4
23,1.76235920001636,43,50,-15,4
110,2.78546859999187,112,50,0,4
51,1.80801780000911,53,100,15,4
143,3.48747150000418,129,100,-30,4
9,2.5028698000242,12,100,-5,4
24,2.39024590002373,23,0,0,4
43,2.5899267999921,31,50,5,4
96,3.0447850000055,103,100,-5,4
161,2.25207290000981,162,50,0,4
38,1.9315818999894,36,50,0,4
46,2.18711780000012,56,0,0,4
30,1.85014230001252,25,0,0,4
87,2.44895229997928,83,0,0,4
50,2.03252790000988,42,50,30,4
160,2.41572270001052,161,100,15,4
86,3.66323160001775,82,100,-30,4
81,2.31055650001508,67,50,-15,4
101,2.20520399999805,96,50,15,4
20,2.1806571999914,14,100,15,4
85,1.84423859999515,81,0,0,4
36,3.53908240000601,44,100,15,4
30,3.2026240999985,42,100,-5,4
97,2.40950589999557,96,50,0,4
112,2.86492839999846,108,0,0,4
161,1.57646179999574,158,100,30,4
170,4.07165290002013,175,100,15,4
170,3.02331480002613,172,0,0,4
82,2.92568430001847,66,100,30,4
278,3.56534159998409,102,100,-15,4
120,2.51641250000102,134,50,0,4
122,2.16375409998,131,100,-30,4
157,2.2674811000179,152,50,15,4
161,1.47403240000131,158,100,30,4
8,3.28950019998592,13,50,-5,4
173,2.15246240000124,175,100,30,4
142,3.95164099999238,132,50,-5,4
38,4.34333869998227,45,100,-15,4
68,1.79023829998914,59,0,0,4
48,1.65337429998908,37,50,0,4
42,2.54878020001343,39,50,0,4
36,2.32440169999609,44,0,0,4
10,3.23523950000526,13,0,0,4
155,2.28246509999735,122,0,0,4
27,2.04984089999925,30,0,0,4
154,1.52139629999874,160,50,0,4
101,1.54416679998394,99,50,15,4
22,2.62251050001942,24,100,15,5
155,2.62979020000785,159,100,-5,5
100,1.98881050001364,108,0,0,5
11,1.60433329999796,13,100,-5,5
164,2.49182749999454,164,50,5,5
11,2.17135459999554,9,100,-15,5
14,1.51475549998577,5,50,-30,5
125,3.45719350001309,151,100,15,5
143,2.13691119998111,151,50,0,5
108,1.47188389999792,124,50,0,5
156,4.16760759998579,151,100,-15,5
107,2.06272740001441,114,100,30,5
105,2.02982560000964,114,100,30,5
62,3.25276200001827,47,50,-15,5
146,1.78034999998636,147,100,5,5
66,1.95571430001291,54,100,5,5
104,2.68348340000375,106,0,0,5
115,2.21804249999695,127,0,0,5
176,1.601387600007,172,0,0,5
17,1.48851749999449,14,100,5,5
38,1.74440320002032,42,50,0,5
98,1.67891119999695,97,50,30,5
172,2.63812930000131,169,0,0,5
144,2.34150889999,154,0,0,5
83,2.66115629998967,82,100,-30,5
73,2.08436120001716,66,50,0,5
36,2.02657240000553,34,100,-30,5
32,3.2902127999987,36,100,5,5
112,2.6659423999954,108,100,5,5
168,2.66492909999215,171,50,30,5
152,2.72884090000298,144,100,-5,5
39,2.07098530000076,32,50,5,5
158,2.02280350000365,159,50,30,5
170,3.09443779999856,175,100,15,5
148,2.16549230000237,154,0,0,5
65,2.92478260002099,44,0,0,5
171,2.81951960001606,175,50,0,5
108,1.72308790002717,117,50,0,5
28,2.13036280000233,34,0,0,5
159,2.4017021000036,161,50,-5,5
81,2.82526489999145,75,100,-30,5
34,1.92818899999838,34,50,0,5
171,2.21528910001507,172,0,0,5
25,1.93425500000012,26,50,0,5
100,2.19815469998866,97,0,0,5
106,2.85294520002208,117,50,-5,5
39,2.59642399998847,57,0,0,5
50,2.25177630002145,53,0,0,5
28,2.48273150000023,42,50,-5,5
163,1.41837150001084,163,100,-15,5
81,2.23383480001939,74,0,0,5
84,2.88031239999691,76,100,-15,5
86,2.42355120001594,84,100,5,5
150,2.79941529998905,153,50,-5,5
34,4.5745287000027,42,100,5,5
157,2.06993930001045,149,0,0,5
26,2.62044349999633,19,100,15,5
83,2.42014470000868,79,50,0,5
162,2.46729249999044,160,100,5,5
113,1.76291360001778,111,0,0,5
139,1.77832660000422,148,50,0,5
59,2.38469430000987,65,0,0,5
177,2.68831399999908,174,50,0,5
117,2.55928079999285,118,100,-30,5
166,1.91913460000069,165,0,0,5
32,3.80639589999919,30,0,0,5
151,2.73290590001852,154,50,-5,5
128,4.2206431000086,118,0,0,5
81,2.57191880000755,78,50,15,5
10,3.13118539997959,13,50,0,5
67,2.12234729999909,60,0,0,5
52,2.43366169999354,44,0,0,5
82,2.96048639999935,82,0,0,5
49,1.97633679999853,44,100,15,5
158,2.50371059999452,159,50,0,5
41,2.55855250000604,43,50,0,5
88,1.99766530000488,83,100,-15,5
45,2.25312730000587,34,0,0,5
141,3.44448160001775,121,50,0,5
43,2.30767989999731,50,0,0,5
259,2.93895680000423,75,100,15,5
100,1.60991530001047,100,100,15,5
164,2.72902379999869,170,50,0,5
41,1.97666540002683,44,50,0,5
33,2.93612339999527,29,0,0,5
149,2.23870250000618,131,0,0,5
132,2.09407230000943,129,50,0,5
126,1.64562709999154,109,100,30,5
111,1.56433510000352,105,0,0,5
100,2.78799380001146,97,100,-30,5
156,2.40298240000266,142,50,0,5
166,1.64235730000655,156,0,0,5
104,3.60141259999364,104,50,5,5
38,3.26510200000484,50,50,0,5
73,2.25633910001488,68,0,0,5
85,2.383302000002,80,50,5,5
162,2.40615130000515,148,100,-5,5
59,3.34961180001847,54,100,5,5
21,2.38949190001586,36,50,5,5
140,4.06082240000251,133,0,0,5
44,3.0511678000039,71,0,0,5
170,2.89867360002245,159,100,30,5
147,3.08226579998154,141,100,5,5
73,2.81740759999957,53,100,30,5
32,2.4403270999901,28,50,0,5
148,3.06382589999703,147,100,5,5
78,2.04731970001012,70,0,0,5
38,2.14210980001371,44,0,0,5
43,3.01398660000996,34,0,0,5
160,1.63684659998398,162,100,15,5
26,3.33987119997619,44,100,-30,5
52,2.09925430000294,47,50,5,5
119,3.04265839999425,126,0,0,5
52,1.52190500000142,53,100,-5,5
79,2.78551079999306,78,50,0,5
169,3.06393579998985,175,100,30,5
119,4.33574169999338,110,50,0,5
100,3.84654090000549,100,0,0,5
83,3.15796750001027,85,100,-15,5
159,3.09327399998438,150,100,30,5
85,2.26049139999668,84,50,-15,5
78,2.69987149999361,74,0,0,5
116,3.89943530000164,111,0,0,5
124,2.25851169999805,118,100,-30,5
164,3.33777589999954,164,0,0,5
9,2.36845070001436,7,100,-15,5
147,2.40820609999355,129,50,30,5
42,2.63157800000045,28,50,15,5
15,2.15892560000066,19,0,0,5
84,4.18219469999894,72,100,-30,5
23,1.24504650000017,25,0,0,5
135,2.02826990000904,133,0,0,5
80,2.69145820001722,77,50,0,5
17,2.69915669999318,24,100,-30,5
72,1.69795200001681,73,0,0,5
203,2.06492940001772,25,50,5,5
86,3.31231139998999,80,0,0,5
171,2.36789200000931,167,0,0,5
164,2.63114300000598,162,0,0,5
165,2.77371910001966,163,100,5,5
123,2.17376760000479,129,50,15,5
85,2.06046259999857,85,50,5,5
30,1.80354309998802,29,0,0,5
123,3.49983839999186,112,50,5,5
167,2.24875600001542,169,100,-30,6
43,2.31237489997875,34,0,0,6
158,2.91859129999648,146,50,5,6
144,2.15076689998386,148,50,-15,6
66,1.82160930000828,50,50,0,6
52,1.79713549997541,42,100,5,6
137,2.22872990000178,123,0,0,6
165,2.63551239998196,158,100,-30,6
34,1.14689350000117,32,50,0,6
32,3.20223530000658,23,50,0,6
27,2.45737269998062,34,0,0,6
158,1.83302749998984,144,0,0,6
69,3.02387889998499,57,0,0,6
71,2.31133669998962,49,0,0,6
33,1.67044230000465,33,100,-30,6
175,2.50979449998704,172,50,-30,6
140,3.55743159999838,137,100,30,6
16,3.02013430002262,9,0,0,6
77,2.55555129999993,68,0,0,6
107,2.63466589999734,109,0,0,6
76,2.06628699999419,71,0,0,6
125,2.90566029999172,111,50,-30,6
66,2.4723255999852,71,0,0,6
170,1.61549890000606,164,50,0,6
14,1.61541500000749,25,100,-30,6
170,2.47828959999606,169,100,-30,6
135,2.89345040000626,128,0,0,6
54,1.67668319999939,55,100,-5,6
173,1.98791429999983,170,100,-5,6
163,3.38755859999219,157,50,0,6
15,2.69893109999248,19,100,15,6
138,2.40940279999631,129,50,0,6
85,2.05650030000834,80,100,15,6
14,2.22386589998496,18,0,0,6
159,3.68753819999984,158,0,0,6
116,2.40686260000803,113,50,0,6
162,1.90988940000534,157,0,0,6
154,2.02118429998518,151,100,15,6
84,2.49246929999208,80,100,30,6
46,1.82024170001387,42,100,-5,6
75,2.23546210001223,65,100,30,6
151,2.67403339999146,126,0,0,6
161,1.46545960000367,167,0,0,6
42,1.5210936999938,33,50,-5,6
113,2.272043999983,111,0,0,6
87,1.2795172999904,78,100,-15,6
165,1.81442069998593,152,50,0,6
115,2.24571980000474,109,0,0,6
97,2.70885269998689,97,100,-30,6
101,1.60446470000898,106,0,0,6
NaN,NaN,98,100,15,6
55,3.7700918999908,56,0,0,6
43,1.68187879998004,68,50,0,6
NaN,NaN,117,50,30,6
145,1.49642670000321,137,100,-5,6
33,1.08805009999196,43,0,0,6
32,2.34266349999234,43,0,0,6
46,2.38222220001626,55,100,-5,6
82,1.73367419998976,66,100,30,6
175,1.53301179999835,174,50,15,6
32,3.04437889999826,24,100,15,6
59,3.40308750001714,59,50,5,6
110,3.80263950000517,101,50,5,6
33,2.08952380000846,45,50,0,6
42,2.35318340000231,47,50,0,6
98,2.74430019999272,99,50,15,6
108,2.91113169997698,111,50,0,6
10,2.95862930000294,12,50,30,6
81,2.04592380000395,67,50,0,6
162,3.09355280001182,155,50,0,6
166,1.78078460000688,161,100,5,6
26,2.45967780001229,28,0,0,6
107,3.26697780002723,115,100,-5,6
65,2.92981980001787,53,100,5,6
111,3.66546899999958,115,50,0,6
NaN,NaN,81,0,0,6
84,2.08724169997731,80,0,0,6
20,2.67912819999037,33,100,-15,6
65,2.07836850002059,64,100,-5,6
NaN,NaN,85,100,-15,6
169,1.82093080002232,160,50,-30,6
100,1.43587549999938,95,100,-15,6
25,2.43525370000862,34,50,-5,6
110,2.22633269999642,117,0,0,6
26,1.84996059999685,37,0,0,6
176,2.04159919999074,174,100,-30,6
54,2.2639010999992,43,100,-30,6
103,2.96767129999353,111,0,0,6
168,3.7671432000061,162,0,0,6
40,2.12608139999793,47,0,0,6
173,1.58924430000479,172,100,30,6
67,3.42872379999608,69,100,-30,6
9,2.54797959999996,16,50,0,6
23,2.52303100001882,28,0,0,6
20,2.85801029999857,28,0,0,6
87,2.7210259999847,84,50,0,6
155,3.5127935000055,149,0,0,6
76,1.87964430000284,76,50,0,6
66,1.91967600001954,47,50,0,6
130,1.85477969999192,126,0,0,6
169,2.54946050001308,164,0,0,6
164,2.96446410001954,156,50,0,6
7,1.79593809999642,6,100,30,6
83,2.45914500000072,66,100,15,6
21,2.7946471000032,33,50,0,6
153,2.37744330000714,156,0,0,6
102,2.87327219999861,105,100,-15,6
84,2.11284069999238,83,50,-5,6
199,1.83173559998977,29,0,0,6
153,3.40732749999734,152,100,-15,6
60,2.86210279999068,68,50,-30,6
150,2.64511310000671,153,50,0,6
79,1.476758099976,77,0,0,6
111,4.23585209998419,114,100,-15,6
26,1.55588599998737,37,50,-30,6
25,2.29787609999767,41,50,30,6
103,2.64962029998424,99,0,0,6
176,1.89726560001145,172,100,30,6
82,2.19265079998877,82,0,0,6
111,3.6960020000115,106,100,5,6
165,1.83849199998076,169,50,0,6
72,2.237770000007,71,50,-5,6
97,1.94940899999347,96,50,0,6
36,1.88434640000924,33,50,30,6
158,2.28409709999687,155,100,-30,6
142,2.6668631999928,129,0,0,6
171,2.49832530002459,167,0,0,6
142,2.03381200000877,134,100,5,6
74,2.44901939999545,70,0,0,6
166,1.72065849998035,152,50,-30,6
255,2.83895490001305,58,50,15,6
61,1.99037710000994,59,0,0,6
158,3.38204679999035,147,0,0,6
79,2.41296590000275,68,100,30,6
167,4.21260830000392,171,50,-15,6
143,1.4589470999781,144,0,0,6
13,2.01081290000002,14,100,5,6
19,1.95406810002169,14,100,15,6
107,2.04904169999645,109,100,30,6
137,2.76874520001002,142,50,15,6
129,2.44757960000425,137,100,-5,6
152,1.69476229997235,137,100,30,6
159,2.21389729998191,162,0,0,6
82,2.21359929998289,66,50,30,6
